{"resourceType":"ExplanationOfBenefit","id":"8a371568-deb8-4939-89da-66b4665f1731","contained":[{"resourceType":"ReferralRequest","id":"1","status":"completed","intent":"order","subject":{"reference":"Patient/411c666d-7d27-437e-9944-d4c43eaac996"},"requester":{"agent":{"identifier":{"system":"http://hl7.org/fhir/sid/us-npi","value":"99999999"}}},"recipient":[{"identifier":{"system":"http://hl7.org/fhir/sid/us-npi","value":"99999999"}}]},{"resourceType":"Coverage","id":"coverage","type":{"text":"no_insurance"}}],"identifier":[{"system":"https://bluebutton.cms.gov/resources/variables/clm_id","value":"539ad2d4-a9e7-4f47-95fe-7c343fcc6d93"},{"system":"https://bluebutton.cms.gov/resources/identifier/claim-group","value":"99999999999"}],"status":"active","type":{"coding":[{"system":"https://bluebutton.cms.gov/resources/variables/nch_clm_type_cd","code":"71","display":"Local carrier non-durable medical equipment, prosthetics, orthotics, and supplies (DMEPOS) claim"},{"system":"https://bluebutton.cms.gov/resources/codesystem/eob-type","code":"CARRIER","display":"EOB Type"},{"system":"http://hl7.org/fhir/ex-claimtype","code":"professional","display":"Claim Type"},{"system":"https://bluebutton.cms.gov/resources/variables/nch_near_line_rec_ident_cd","code":"O","display":"Part B physician/supplier claim record (processed by local carriers; can include DMEPOS services)"}]},"patient":{"reference":"Patient/411c666d-7d27-437e-9944-d4c43eaac996"},"billablePeriod":{"start":"2008-11-08T09:22:49-05:00","end":"2009-11-08T09:22:49-05:00"},"created":"2008-11-08T09:22:49-05:00","provider":{"reference":"Organization/49f48ad0-15da-4be6-bc8c-2132c08a805a"},"referral":{"reference":"#1"},"claim":{"reference":"Claim/539ad2d4-a9e7-4f47-95fe-7c343fcc6d93"},"careTeam":[{"sequence":1,"provider":{"identifier":{"system":"http://hl7.org/fhir/sid/us-npi","value":"99999999"}},"role":{"coding":[{"system":"http://hl7.org/fhir/claimcareteamrole","code":"primary","display":"Primary Care Practitioner"}]}}],"diagnosis":[{"extension":[{"url":"https://bluebutton.cms.gov/assets/ig/StructureDefinition-bluebutton-inpatient-clm-poa-ind-sw1-extension","valueCoding":{"system":"https://bluebutton.cms.gov/assets/ig/CodeSystem-clm-poa-ind-sw1","code":"Y","display":"Diagnosis present at time of admission"}}],"sequence":1,"diagnosisReference":{"reference":"Condition/7b406e3a-effa-4286-b28e-c1467430972b"},"type":[{"coding":[{"system":"https://bluebutton.cms.gov/resources/codesystem/diagnosis-type","code":"principal"}]}]}],"insurance":{"coverage":{"reference":"#coverage"}},"item":[{"sequence":1,"category":{"coding":[{"system":"https://bluebutton.cms.gov/resources/variables/line_cms_type_srvc_cd","code":"1","display":"Medical care"}]},"servicedPeriod":{"start":"2008-11-08T08:22:49-05:00","end":"2008-11-08T09:22:49-05:00"},"locationCodeableConcept":{"coding":[{"system":"https://bluebutton.cms.gov/resources/variables/line_place_of_srvc_cd","code":"23","display":"Emergency Room"}]},"encounter":[{"reference":"Encounter/e17ca0df-f34d-4812-83d2-6a0e5551a525"}]},{"sequence":2,"diagnosisLinkId":[1],"category":{"coding":[{"system":"https://bluebutton.cms.gov/resources/variables/line_cms_type_srvc_cd","code":"1","display":"Medical care"}]},"servicedPeriod":{"start":"2008-11-08T08:22:49-05:00","end":"2008-11-08T09:22:49-05:00"},"locationCodeableConcept":{"coding":[{"system":"https://bluebutton.cms.gov/resources/variables/line_place_of_srvc_cd","code":"23","display":"Emergency Room"}]}}],"totalCost":{"value":125,"system":"urn:iso:std:iso:4217","code":"USD"},"payment":{"amount":{"value":0,"system":"urn:iso:std:iso:4217","code":"USD"}}}
{"resourceType":"ExplanationOfBenefit","id":"33562bef-560e-4bce-8333-a633bd638bcc","contained":[{"resourceType":"ReferralRequest","id":"1","status":"completed","intent":"order","subject":{"reference":"Patient/411c666d-7d27-437e-9944-d4c43eaac996"},"requester":{"agent":{"identifier":{"system":"http://hl7.org/fhir/sid/us-npi","value":"99999999"}}},"recipient":[{"identifier":{"system":"http://hl7.org/fhir/sid/us-npi","value":"99999999"}}]},{"resourceType":"Coverage","id":"coverage","type":{"text":"no_insurance"}}],"identifier":[{"system":"https://bluebutton.cms.gov/resources/variables/clm_id","value":"96f5450b-60fc-40e9-bca6-09caf4c2d384"},{"system":"https://bluebutton.cms.gov/resources/identifier/claim-group","value":"99999999999"}],"status":"active","type":{"coding":[{"system":"https://bluebutton.cms.gov/resources/variables/nch_clm_type_cd","code":"71","display":"Local carrier non-durable medical equipment, prosthetics, orthotics, and supplies (DMEPOS) claim"},{"system":"https://bluebutton.cms.gov/resources/codesystem/eob-type","code":"CARRIER","display":"EOB Type"},{"system":"http://hl7.org/fhir/ex-claimtype","code":"professional","display":"Claim Type"},{"system":"https://bluebutton.cms.gov/resources/variables/nch_near_line_rec_ident_cd","code":"O","display":"Part B physician/supplier claim record (processed by local carriers; can include DMEPOS services)"}]},"patient":{"reference":"Patient/411c666d-7d27-437e-9944-d4c43eaac996"},"billablePeriod":{"start":"2009-05-25T09:52:49-04:00","end":"2010-05-25T09:52:49-04:00"},"created":"2009-05-25T09:52:49-04:00","provider":{"reference":"Organization/49f48ad0-15da-4be6-bc8c-2132c08a805a"},"referral":{"reference":"#1"},"claim":{"reference":"Claim/96f5450b-60fc-40e9-bca6-09caf4c2d384"},"careTeam":[{"sequence":1,"provider":{"identifier":{"system":"http://hl7.org/fhir/sid/us-npi","value":"99999999"}},"role":{"coding":[{"system":"http://hl7.org/fhir/claimcareteamrole","code":"primary","display":"Primary Care Practitioner"}]}}],"insurance":{"coverage":{"reference":"#coverage"}},"item":[{"sequence":1,"category":{"coding":[{"system":"https://bluebutton.cms.gov/resources/variables/line_cms_type_srvc_cd","code":"1","display":"Medical care"}]},"servicedPeriod":{"start":"2009-05-25T09:22:49-04:00","end":"2009-05-25T09:52:49-04:00"},"locationCodeableConcept":{"coding":[{"system":"https://bluebutton.cms.gov/resources/variables/line_place_of_srvc_cd","code":"21","display":"Inpatient Hospital"}]},"encounter":[{"reference":"Encounter/278a07a0-20c5-4b7f-814d-e581cb0d49c9"}]},{"sequence":2,"informationLinkId":[1],"category":{"coding":[{"system":"https://bluebutton.cms.gov/resources/variables/line_cms_type_srvc_cd","code":"1","display":"Medical care"}]},"servicedPeriod":{"start":"2009-05-25T09:22:49-04:00","end":"2009-05-25T09:52:49-04:00"},"locationCodeableConcept":{"coding":[{"system":"https://bluebutton.cms.gov/resources/variables/line_place_of_srvc_cd","code":"21","display":"Inpatient Hospital"}]},"net":{"value":140.52,"system":"urn:iso:std:iso:4217","code":"USD"},"adjudication":[{"category":{"coding":[{"system":"https://bluebutton.cms.gov/resources/codesystem/adjudication","code":"https://bluebutton.cms.gov/resources/variables/line_coinsrnc_amt","display":"Line Beneficiary Coinsurance Amount"}]},"amount":{"value":28.104000000000003,"system":"urn:iso:std:iso:4217","code":"USD"}},{"category":{"coding":[{"system":"https://bluebutton.cms.gov/resources/codesystem/adjudication","code":"https://bluebutton.cms.gov/resources/variables/line_prvdr_pmt_amt","display":"Line Provider Payment Amount"}]},"amount":{"value":112.41600000000001,"system":"urn:iso:std:iso:4217","code":"USD"}},{"category":{"coding":[{"system":"https://bluebutton.cms.gov/resources/codesystem/adjudication","code":"https://bluebutton.cms.gov/resources/variables/line_sbmtd_chrg_amt","display":"Line Submitted Charge Amount"}]},"amount":{"value":140.52,"system":"urn:iso:std:iso:4217","code":"USD"}},{"category":{"coding":[{"system":"https://bluebutton.cms.gov/resources/codesystem/adjudication","code":"https://bluebutton.cms.gov/resources/variables/line_alowd_chrg_amt","display":"Line Allowed Charge Amount"}]},"amount":{"value":140.52,"system":"urn:iso:std:iso:4217","code":"USD"}},{"category":{"coding":[{"system":"https://bluebutton.cms.gov/resources/codesystem/adjudication","code":"https://bluebutton.cms.gov/resources/variables/line_bene_ptb_ddctbl_amt","display":"Line Beneficiary Part B Deductible Amount"}]},"amount":{"value":0,"system":"urn:iso:std:iso:4217","code":"USD"}},{"category":{"coding":[{"system":"https://bluebutton.cms.gov/resources/codesystem/adjudication","code":"https://bluebutton.cms.gov/resources/variables/line_prcsg_ind_cd","display":"Line Processing Indicator Code"}]},"reason":{"coding":[{"system":"https://bluebutton.cms.gov/resources/variables/line_prcsg_ind_cd","code":"A","display":"Allowed"}]}}]},{"sequence":3,"informationLinkId":[2],"category":{"coding":[{"system":"https://bluebutton.cms.gov/resources/variables/line_cms_type_srvc_cd","code":"1","display":"Medical care"}]},"servicedPeriod":{"start":"2009-05-25T09:22:49-04:00","end":"2009-05-25T09:52:49-04:00"},"locationCodeableConcept":{"coding":[{"system":"https://bluebutton.cms.gov/resources/variables/line_place_of_srvc_cd","code":"21","display":"Inpatient Hospital"}]},"net":{"value":140.52,"system":"urn:iso:std:iso:4217","code":"USD"},"adjudication":[{"category":{"coding":[{"system":"https://bluebutton.cms.gov/resources/codesystem/adjudication","code":"https://bluebutton.cms.gov/resources/variables/line_coinsrnc_amt","display":"Line Beneficiary Coinsurance Amount"}]},"amount":{"value":28.104000000000003,"system":"urn:iso:std:iso:4217","code":"USD"}},{"category":{"coding":[{"system":"https://bluebutton.cms.gov/resources/codesystem/adjudication","code":"https://bluebutton.cms.gov/resources/variables/line_prvdr_pmt_amt","display":"Line Provider Payment Amount"}]},"amount":{"value":112.41600000000001,"system":"urn:iso:std:iso:4217","code":"USD"}},{"category":{"coding":[{"system":"https://bluebutton.cms.gov/resources/codesystem/adjudication","code":"https://bluebutton.cms.gov/resources/variables/line_sbmtd_chrg_amt","display":"Line Submitted Charge Amount"}]},"amount":{"value":140.52,"system":"urn:iso:std:iso:4217","code":"USD"}},{"category":{"coding":[{"system":"https://bluebutton.cms.gov/resources/codesystem/adjudication","code":"https://bluebutton.cms.gov/resources/variables/line_alowd_chrg_amt","display":"Line Allowed Charge Amount"}]},"amount":{"value":140.52,"system":"urn:iso:std:iso:4217","code":"USD"}},{"category":{"coding":[{"system":"https://bluebutton.cms.gov/resources/codesystem/adjudication","code":"https://bluebutton.cms.gov/resources/variables/line_bene_ptb_ddctbl_amt","display":"Line Beneficiary Part B Deductible Amount"}]},"amount":{"value":0,"system":"urn:iso:std:iso:4217","code":"USD"}},{"category":{"coding":[{"system":"https://bluebutton.cms.gov/resources/codesystem/adjudication","code":"https://bluebutton.cms.gov/resources/variables/line_prcsg_ind_cd","display":"Line Processing Indicator Code"}]},"reason":{"coding":[{"system":"https://bluebutton.cms.gov/resources/variables/line_prcsg_ind_cd","code":"A","display":"Allowed"}]}}]},{"sequence":4,"informationLinkId":[3],"category":{"coding":[{"system":"https://bluebutton.cms.gov/resources/variables/line_cms_type_srvc_cd","code":"1","display":"Medical care"}]},"servicedPeriod":{"start":"2009-05-25T09:22:49-04:00","end":"2009-05-25T09:52:49-04:00"},"locationCodeableConcept":{"coding":[{"system":"https://bluebutton.cms.gov/resources/variables/line_place_of_srvc_cd","code":"21","display":"Inpatient Hospital"}]},"net":{"value":140.52,"system":"urn:iso:std:iso:4217","code":"USD"},"adjudication":[{"category":{"coding":[{"system":"https://bluebutton.cms.gov/resources/codesystem/adjudication","code":"https://bluebutton.cms.gov/resources/variables/line_coinsrnc_amt","display":"Line Beneficiary Coinsurance Amount"}]},"amount":{"value":28.104000000000003,"system":"urn:iso:std:iso:4217","code":"USD"}},{"category":{"coding":[{"system":"https://bluebutton.cms.gov/resources/codesystem/adjudication","code":"https://bluebutton.cms.gov/resources/variables/line_prvdr_pmt_amt","display":"Line Provider Payment Amount"}]},"amount":{"value":112.41600000000001,"system":"urn:iso:std:iso:4217","code":"USD"}},{"category":{"coding":[{"system":"https://bluebutton.cms.gov/resources/codesystem/adjudication","code":"https://bluebutton.cms.gov/resources/variables/line_sbmtd_chrg_amt","display":"Line Submitted Charge Amount"}]},"amount":{"value":140.52,"system":"urn:iso:std:iso:4217","code":"USD"}},{"category":{"coding":[{"system":"https://bluebutton.cms.gov/resources/codesystem/adjudication","code":"https://bluebutton.cms.gov/resources/variables/line_alowd_chrg_amt","display":"Line Allowed Charge Amount"}]},"amount":{"value":140.52,"system":"urn:iso:std:iso:4217","code":"USD"}},{"category":{"coding":[{"system":"https://bluebutton.cms.gov/resources/codesystem/adjudication","code":"https://bluebutton.cms.gov/resources/variables/line_bene_ptb_ddctbl_amt","display":"Line Beneficiary Part B Deductible Amount"}]},"amount":{"value":0,"system":"urn:iso:std:iso:4217","code":"USD"}},{"category":{"coding":[{"system":"https://bluebutton.cms.gov/resources/codesystem/adjudication","code":"https://bluebutton.cms.gov/resources/variables/line_prcsg_ind_cd","display":"Line Processing Indicator Code"}]},"reason":{"coding":[{"system":"https://bluebutton.cms.gov/resources/variables/line_prcsg_ind_cd","code":"A","display":"Allowed"}]}}]},{"sequence":5,"informationLinkId":[4],"category":{"coding":[{"system":"https://bluebutton.cms.gov/resources/variables/line_cms_type_srvc_cd","code":"1","display":"Medical care"}]},"servicedPeriod":{"start":"2009-05-25T09:22:49-04:00","end":"2009-05-25T09:52:49-04:00"},"locationCodeableConcept":{"coding":[{"system":"https://bluebutton.cms.gov/resources/variables/line_place_of_srvc_cd","code":"21","display":"Inpatient Hospital"}]},"net":{"value":140.52,"system":"urn:iso:std:iso:4217","code":"USD"},"adjudication":[{"category":{"coding":[{"system":"https://bluebutton.cms.gov/resources/codesystem/adjudication","code":"https://bluebutton.cms.gov/resources/variables/line_coinsrnc_amt","display":"Line Beneficiary Coinsurance Amount"}]},"amount":{"value":28.104000000000003,"system":"urn:iso:std:iso:4217","code":"USD"}},{"category":{"coding":[{"system":"https://bluebutton.cms.gov/resources/codesystem/adjudication","code":"https://bluebutton.cms.gov/resources/variables/line_prvdr_pmt_amt","display":"Line Provider Payment Amount"}]},"amount":{"value":112.41600000000001,"system":"urn:iso:std:iso:4217","code":"USD"}},{"category":{"coding":[{"system":"https://bluebutton.cms.gov/resources/codesystem/adjudication","code":"https://bluebutton.cms.gov/resources/variables/line_sbmtd_chrg_amt","display":"Line Submitted Charge Amount"}]},"amount":{"value":140.52,"system":"urn:iso:std:iso:4217","code":"USD"}},{"category":{"coding":[{"system":"https://bluebutton.cms.gov/resources/codesystem/adjudication","code":"https://bluebutton.cms.gov/resources/variables/line_alowd_chrg_amt","display":"Line Allowed Charge Amount"}]},"amount":{"value":140.52,"system":"urn:iso:std:iso:4217","code":"USD"}},{"category":{"coding":[{"system":"https://bluebutton.cms.gov/resources/codesystem/adjudication","code":"https://bluebutton.cms.gov/resources/variables/line_bene_ptb_ddctbl_amt","display":"Line Beneficiary Part B Deductible Amount"}]},"amount":{"value":0,"system":"urn:iso:std:iso:4217","code":"USD"}},{"category":{"coding":[{"system":"https://bluebutton.cms.gov/resources/codesystem/adjudication","code":"https://bluebutton.cms.gov/resources/variables/line_prcsg_ind_cd","display":"Line Processing Indicator Code"}]},"reason":{"coding":[{"system":"https://bluebutton.cms.gov/resources/variables/line_prcsg_ind_cd","code":"A","display":"Allowed"}]}}]},{"sequence":6,"category":{"coding":[{"system":"https://bluebutton.cms.gov/resources/variables/line_cms_type_srvc_cd","code":"1","display":"Medical care"}]},"service":{"coding":[{"system":"http://snomed.info/sct","version":"v1","code":"428191000124101"}]},"servicedPeriod":{"start":"2009-05-25T09:22:49-04:00","end":"2009-05-25T09:52:49-04:00"},"locationCodeableConcept":{"coding":[{"system":"https://bluebutton.cms.gov/resources/variables/line_place_of_srvc_cd","code":"21","display":"Inpatient Hospital"}]},"net":{"value":533.99,"system":"urn:iso:std:iso:4217","code":"USD"},"adjudication":[{"category":{"coding":[{"system":"https://bluebutton.cms.gov/resources/codesystem/adjudication","code":"https://bluebutton.cms.gov/resources/variables/line_coinsrnc_amt","display":"Line Beneficiary Coinsurance Amount"}]},"amount":{"value":106.798,"system":"urn:iso:std:iso:4217","code":"USD"}},{"category":{"coding":[{"system":"https://bluebutton.cms.gov/resources/codesystem/adjudication","code":"https://bluebutton.cms.gov/resources/variables/line_prvdr_pmt_amt","display":"Line Provider Payment Amount"}]},"amount":{"value":427.192,"system":"urn:iso:std:iso:4217","code":"USD"}},{"category":{"coding":[{"system":"https://bluebutton.cms.gov/resources/codesystem/adjudication","code":"https://bluebutton.cms.gov/resources/variables/line_sbmtd_chrg_amt","display":"Line Submitted Charge Amount"}]},"amount":{"value":533.99,"system":"urn:iso:std:iso:4217","code":"USD"}},{"category":{"coding":[{"system":"https://bluebutton.cms.gov/resources/codesystem/adjudication","code":"https://bluebutton.cms.gov/resources/variables/line_alowd_chrg_amt","display":"Line Allowed Charge Amount"}]},"amount":{"value":533.99,"system":"urn:iso:std:iso:4217","code":"USD"}},{"category":{"coding":[{"system":"https://bluebutton.cms.gov/resources/codesystem/adjudication","code":"https://bluebutton.cms.gov/resources/variables/line_bene_ptb_ddctbl_amt","display":"Line Beneficiary Part B Deductible Amount"}]},"amount":{"value":0,"system":"urn:iso:std:iso:4217","code":"USD"}},{"category":{"coding":[{"system":"https://bluebutton.cms.gov/resources/codesystem/adjudication","code":"https://bluebutton.cms.gov/resources/variables/line_prcsg_ind_cd","display":"Line Processing Indicator Code"}]},"reason":{"coding":[{"system":"https://bluebutton.cms.gov/resources/variables/line_prcsg_ind_cd","code":"A","display":"Allowed"}]}}]}],"totalCost":{"value":1221.07,"system":"urn:iso:std:iso:4217","code":"USD"},"payment":{"amount":{"value":876.856,"system":"urn:iso:std:iso:4217","code":"USD"}}}
{"resourceType":"ExplanationOfBenefit","id":"1e8e48f0-32b7-4338-9c45-b7a9d00e63fc","contained":[{"resourceType":"ReferralRequest","id":"1","status":"completed","intent":"order","subject":{"reference":"Patient/411c666d-7d27-437e-9944-d4c43eaac996"},"requester":{"agent":{"identifier":{"system":"http://hl7.org/fhir/sid/us-npi","value":"99999999"}}},"recipient":[{"identifier":{"system":"http://hl7.org/fhir/sid/us-npi","value":"99999999"}}]},{"resourceType":"Coverage","id":"coverage","type":{"text":"no_insurance"}}],"identifier":[{"system":"https://bluebutton.cms.gov/resources/variables/clm_id","value":"016a5cd9-3d9f-4d3f-9ea0-8a92e75543f2"},{"system":"https://bluebutton.cms.gov/resources/identifier/claim-group","value":"99999999999"}],"status":"active","type":{"coding":[{"system":"https://bluebutton.cms.gov/resources/variables/nch_clm_type_cd","code":"71","display":"Local carrier non-durable medical equipment, prosthetics, orthotics, and supplies (DMEPOS) claim"},{"system":"https://bluebutton.cms.gov/resources/codesystem/eob-type","code":"CARRIER","display":"EOB Type"},{"system":"http://hl7.org/fhir/ex-claimtype","code":"professional","display":"Claim Type"},{"system":"https://bluebutton.cms.gov/resources/variables/nch_near_line_rec_ident_cd","code":"O","display":"Part B physician/supplier claim record (processed by local carriers; can include DMEPOS services)"}]},"patient":{"reference":"Patient/411c666d-7d27-437e-9944-d4c43eaac996"},"billablePeriod":{"start":"2010-05-31T09:37:49-04:00","end":"2011-05-31T09:37:49-04:00"},"created":"2010-05-31T09:37:49-04:00","provider":{"reference":"Organization/49f48ad0-15da-4be6-bc8c-2132c08a805a"},"referral":{"reference":"#1"},"claim":{"reference":"Claim/016a5cd9-3d9f-4d3f-9ea0-8a92e75543f2"},"careTeam":[{"sequence":1,"provider":{"identifier":{"system":"http://hl7.org/fhir/sid/us-npi","value":"99999999"}},"role":{"coding":[{"system":"http://hl7.org/fhir/claimcareteamrole","code":"primary","display":"Primary Care Practitioner"}]}}],"insurance":{"coverage":{"reference":"#coverage"}},"item":[{"sequence":1,"category":{"coding":[{"system":"https://bluebutton.cms.gov/resources/variables/line_cms_type_srvc_cd","code":"1","display":"Medical care"}]},"servicedPeriod":{"start":"2010-05-31T09:22:49-04:00","end":"2010-05-31T09:37:49-04:00"},"locationCodeableConcept":{"coding":[{"system":"https://bluebutton.cms.gov/resources/variables/line_place_of_srvc_cd","code":"21","display":"Inpatient Hospital"}]},"encounter":[{"reference":"Encounter/81c96211-01f8-416a-b690-04437213bac9"}]},{"sequence":2,"informationLinkId":[1],"category":{"coding":[{"system":"https://bluebutton.cms.gov/resources/variables/line_cms_type_srvc_cd","code":"1","display":"Medical care"}]},"servicedPeriod":{"start":"2010-05-31T09:22:49-04:00","end":"2010-05-31T09:37:49-04:00"},"locationCodeableConcept":{"coding":[{"system":"https://bluebutton.cms.gov/resources/variables/line_place_of_srvc_cd","code":"21","display":"Inpatient Hospital"}]},"net":{"value":140.52,"system":"urn:iso:std:iso:4217","code":"USD"},"adjudication":[{"category":{"coding":[{"system":"https://bluebutton.cms.gov/resources/codesystem/adjudication","code":"https://bluebutton.cms.gov/resources/variables/line_coinsrnc_amt","display":"Line Beneficiary Coinsurance Amount"}]},"amount":{"value":28.104000000000003,"system":"urn:iso:std:iso:4217","code":"USD"}},{"category":{"coding":[{"system":"https://bluebutton.cms.gov/resources/codesystem/adjudication","code":"https://bluebutton.cms.gov/resources/variables/line_prvdr_pmt_amt","display":"Line Provider Payment Amount"}]},"amount":{"value":112.41600000000001,"system":"urn:iso:std:iso:4217","code":"USD"}},{"category":{"coding":[{"system":"https://bluebutton.cms.gov/resources/codesystem/adjudication","code":"https://bluebutton.cms.gov/resources/variables/line_sbmtd_chrg_amt","display":"Line Submitted Charge Amount"}]},"amount":{"value":140.52,"system":"urn:iso:std:iso:4217","code":"USD"}},{"category":{"coding":[{"system":"https://bluebutton.cms.gov/resources/codesystem/adjudication","code":"https://bluebutton.cms.gov/resources/variables/line_alowd_chrg_amt","display":"Line Allowed Charge Amount"}]},"amount":{"value":140.52,"system":"urn:iso:std:iso:4217","code":"USD"}},{"category":{"coding":[{"system":"https://bluebutton.cms.gov/resources/codesystem/adjudication","code":"https://bluebutton.cms.gov/resources/variables/line_bene_ptb_ddctbl_amt","display":"Line Beneficiary Part B Deductible Amount"}]},"amount":{"value":0,"system":"urn:iso:std:iso:4217","code":"USD"}},{"category":{"coding":[{"system":"https://bluebutton.cms.gov/resources/codesystem/adjudication","code":"https://bluebutton.cms.gov/resources/variables/line_prcsg_ind_cd","display":"Line Processing Indicator Code"}]},"reason":{"coding":[{"system":"https://bluebutton.cms.gov/resources/variables/line_prcsg_ind_cd","code":"A","display":"Allowed"}]}}]},{"sequence":3,"informationLinkId":[2],"category":{"coding":[{"system":"https://bluebutton.cms.gov/resources/variables/line_cms_type_srvc_cd","code":"1","display":"Medical care"}]},"servicedPeriod":{"start":"2010-05-31T09:22:49-04:00","end":"2010-05-31T09:37:49-04:00"},"locationCodeableConcept":{"coding":[{"system":"https://bluebutton.cms.gov/resources/variables/line_place_of_srvc_cd","code":"21","display":"Inpatient Hospital"}]},"net":{"value":140.52,"system":"urn:iso:std:iso:4217","code":"USD"},"adjudication":[{"category":{"coding":[{"system":"https://bluebutton.cms.gov/resources/codesystem/adjudication","code":"https://bluebutton.cms.gov/resources/variables/line_coinsrnc_amt","display":"Line Beneficiary Coinsurance Amount"}]},"amount":{"value":28.104000000000003,"system":"urn:iso:std:iso:4217","code":"USD"}},{"category":{"coding":[{"system":"https://bluebutton.cms.gov/resources/codesystem/adjudication","code":"https://bluebutton.cms.gov/resources/variables/line_prvdr_pmt_amt","display":"Line Provider Payment Amount"}]},"amount":{"value":112.41600000000001,"system":"urn:iso:std:iso:4217","code":"USD"}},{"category":{"coding":[{"system":"https://bluebutton.cms.gov/resources/codesystem/adjudication","code":"https://bluebutton.cms.gov/resources/variables/line_sbmtd_chrg_amt","display":"Line Submitted Charge Amount"}]},"amount":{"value":140.52,"system":"urn:iso:std:iso:4217","code":"USD"}},{"category":{"coding":[{"system":"https://bluebutton.cms.gov/resources/codesystem/adjudication","code":"https://bluebutton.cms.gov/resources/variables/line_alowd_chrg_amt","display":"Line Allowed Charge Amount"}]},"amount":{"value":140.52,"system":"urn:iso:std:iso:4217","code":"USD"}},{"category":{"coding":[{"system":"https://bluebutton.cms.gov/resources/codesystem/adjudication","code":"https://bluebutton.cms.gov/resources/variables/line_bene_ptb_ddctbl_amt","display":"Line Beneficiary Part B Deductible Amount"}]},"amount":{"value":0,"system":"urn:iso:std:iso:4217","code":"USD"}},{"category":{"coding":[{"system":"https://bluebutton.cms.gov/resources/codesystem/adjudication","code":"https://bluebutton.cms.gov/resources/variables/line_prcsg_ind_cd","display":"Line Processing Indicator Code"}]},"reason":{"coding":[{"system":"https://bluebutton.cms.gov/resources/variables/line_prcsg_ind_cd","code":"A","display":"Allowed"}]}}]}],"totalCost":{"value":406.04,"system":"urn:iso:std:iso:4217","code":"USD"},"payment":{"amount":{"value":224.83200000000002,"system":"urn:iso:std:iso:4217","code":"USD"}}}
{"resourceType":"ExplanationOfBenefit","id":"00c064d5-6f19-4efc-a1d6-b80e693f15bc","contained":[{"resourceType":"ReferralRequest","id":"1","status":"completed","intent":"order","subject":{"reference":"Patient/411c666d-7d27-437e-9944-d4c43eaac996"},"requester":{"agent":{"identifier":{"system":"http://hl7.org/fhir/sid/us-npi","value":"99999999"}}},"recipient":[{"identifier":{"system":"http://hl7.org/fhir/sid/us-npi","value":"99999999"}}]},{"resourceType":"Coverage","id":"coverage","type":{"text":"no_insurance"}}],"identifier":[{"system":"https://bluebutton.cms.gov/resources/variables/clm_id","value":"0330386e-01f7-48e6-858b-dab4ebdb06dc"},{"system":"https://bluebutton.cms.gov/resources/identifier/claim-group","value":"99999999999"}],"status":"active","type":{"coding":[{"system":"https://bluebutton.cms.gov/resources/variables/nch_clm_type_cd","code":"71","display":"Local carrier non-durable medical equipment, prosthetics, orthotics, and supplies (DMEPOS) claim"},{"system":"https://bluebutton.cms.gov/resources/codesystem/eob-type","code":"CARRIER","display":"EOB Type"},{"system":"http://hl7.org/fhir/ex-claimtype","code":"professional","display":"Claim Type"},{"system":"https://bluebutton.cms.gov/resources/variables/nch_near_line_rec_ident_cd","code":"O","display":"Part B physician/supplier claim record (processed by local carriers; can include DMEPOS services)"}]},"patient":{"reference":"Patient/411c666d-7d27-437e-9944-d4c43eaac996"},"billablePeriod":{"start":"2010-09-06T09:37:49-04:00","end":"2011-09-06T09:37:49-04:00"},"created":"2010-09-06T09:37:49-04:00","provider":{"reference":"Organization/49f48ad0-15da-4be6-bc8c-2132c08a805a"},"referral":{"reference":"#1"},"claim":{"reference":"Claim/0330386e-01f7-48e6-858b-dab4ebdb06dc"},"careTeam":[{"sequence":1,"provider":{"identifier":{"system":"http://hl7.org/fhir/sid/us-npi","value":"99999999"}},"role":{"coding":[{"system":"http://hl7.org/fhir/claimcareteamrole","code":"primary","display":"Primary Care Practitioner"}]}}],"insurance":{"coverage":{"reference":"#coverage"}},"item":[{"sequence":1,"category":{"coding":[{"system":"https://bluebutton.cms.gov/resources/variables/line_cms_type_srvc_cd","code":"1","display":"Medical care"}]},"servicedPeriod":{"start":"2010-09-06T09:22:49-04:00","end":"2010-09-06T09:37:49-04:00"},"locationCodeableConcept":{"coding":[{"system":"https://bluebutton.cms.gov/resources/variables/line_place_of_srvc_cd","code":"21","display":"Inpatient Hospital"}]},"encounter":[{"reference":"Encounter/a8570766-82d6-451f-94be-89326b606690"}]},{"sequence":2,"informationLinkId":[1],"category":{"coding":[{"system":"https://bluebutton.cms.gov/resources/variables/line_cms_type_srvc_cd","code":"1","display":"Medical care"}]},"servicedPeriod":{"start":"2010-09-06T09:22:49-04:00","end":"2010-09-06T09:37:49-04:00"},"locationCodeableConcept":{"coding":[{"system":"https://bluebutton.cms.gov/resources/variables/line_place_of_srvc_cd","code":"21","display":"Inpatient Hospital"}]},"net":{"value":140.52,"system":"urn:iso:std:iso:4217","code":"USD"},"adjudication":[{"category":{"coding":[{"system":"https://bluebutton.cms.gov/resources/codesystem/adjudication","code":"https://bluebutton.cms.gov/resources/variables/line_coinsrnc_amt","display":"Line Beneficiary Coinsurance Amount"}]},"amount":{"value":28.104000000000003,"system":"urn:iso:std:iso:4217","code":"USD"}},{"category":{"coding":[{"system":"https://bluebutton.cms.gov/resources/codesystem/adjudication","code":"https://bluebutton.cms.gov/resources/variables/line_prvdr_pmt_amt","display":"Line Provider Payment Amount"}]},"amount":{"value":112.41600000000001,"system":"urn:iso:std:iso:4217","code":"USD"}},{"category":{"coding":[{"system":"https://bluebutton.cms.gov/resources/codesystem/adjudication","code":"https://bluebutton.cms.gov/resources/variables/line_sbmtd_chrg_amt","display":"Line Submitted Charge Amount"}]},"amount":{"value":140.52,"system":"urn:iso:std:iso:4217","code":"USD"}},{"category":{"coding":[{"system":"https://bluebutton.cms.gov/resources/codesystem/adjudication","code":"https://bluebutton.cms.gov/resources/variables/line_alowd_chrg_amt","display":"Line Allowed Charge Amount"}]},"amount":{"value":140.52,"system":"urn:iso:std:iso:4217","code":"USD"}},{"category":{"coding":[{"system":"https://bluebutton.cms.gov/resources/codesystem/adjudication","code":"https://bluebutton.cms.gov/resources/variables/line_bene_ptb_ddctbl_amt","display":"Line Beneficiary Part B Deductible Amount"}]},"amount":{"value":0,"system":"urn:iso:std:iso:4217","code":"USD"}},{"category":{"coding":[{"system":"https://bluebutton.cms.gov/resources/codesystem/adjudication","code":"https://bluebutton.cms.gov/resources/variables/line_prcsg_ind_cd","display":"Line Processing Indicator Code"}]},"reason":{"coding":[{"system":"https://bluebutton.cms.gov/resources/variables/line_prcsg_ind_cd","code":"A","display":"Allowed"}]}}]}],"totalCost":{"value":265.52,"system":"urn:iso:std:iso:4217","code":"USD"},"payment":{"amount":{"value":112.41600000000001,"system":"urn:iso:std:iso:4217","code":"USD"}}}
{"resourceType":"ExplanationOfBenefit","id":"a6010803-aa7c-4ceb-978c-839b536e89f4","meta":{"profile":["https://bluebutton.cms.gov/assets/ig/StructureDefinition-bluebutton-inpatient-claim"]},"contained":[{"resourceType":"Coverage","id":"coverage","type":{"text":"no_insurance"}}],"extension":[{"url":"https://bluebutton.cms.gov/assets/ig/StructureDefinition-bluebutton-inpatient-ime-op-clm-val-amt-extension","valueMoney":{"value":400,"system":"urn:iso:std:iso:4217","code":"USD"}},{"url":"https://bluebutton.cms.gov/assets/ig/StructureDefinition-bluebutton-inpatient-dsh-op-clm-val-amt-extension","valueMoney":{"value":0,"system":"urn:iso:std:iso:4217","code":"USD"}},{"url":"https://bluebutton.cms.gov/assets/ig/StructureDefinition-bluebutton-inpatient-clm-pass-thru-per-diem-amt-extension","valueMoney":{"value":0,"system":"urn:iso:std:iso:4217","code":"USD"}},{"url":"https://bluebutton.cms.gov/assets/ig/StructureDefinition-bluebutton-inpatient-nch-profnl-cmpnt-chrg-amt-extension","valueMoney":{"value":0,"system":"urn:iso:std:iso:4217","code":"USD"}},{"url":"https://bluebutton.cms.gov/assets/ig/StructureDefinition-bluebutton-inpatient-clm-tot-pps-cptl-amt-extension","valueMoney":{"value":0,"system":"urn:iso:std:iso:4217","code":"USD"}},{"url":"https://bluebutton.cms.gov/assets/ig/StructureDefinition-bluebutton-inpatient-nch-bene-ip-ddctbl-amt-extension","valueMoney":{"value":0,"system":"urn:iso:std:iso:4217","code":"USD"}},{"url":"https://bluebutton.cms.gov/assets/ig/StructureDefinition-bluebutton-inpatient-nch-bene-pta-coinsrnc-lblty-amt-extension","valueMoney":{"value":0,"system":"urn:iso:std:iso:4217","code":"USD"}},{"url":"https://bluebutton.cms.gov/assets/ig/StructureDefinition-bluebutton-inpatient-nch-ip-ncvrd-chrg-amt-extension","valueMoney":{"value":0,"system":"urn:iso:std:iso:4217","code":"USD"}},{"url":"https://bluebutton.cms.gov/assets/ig/StructureDefinition-bluebutton-inpatient-nch-ip-tot-ddctn-amt-extension","valueMoney":{"value":0,"system":"urn:iso:std:iso:4217","code":"USD"}},{"url":"https://bluebutton.cms.gov/assets/ig/StructureDefinition-bluebutton-inpatient-clm-pps-cptl-dsprprtnt-shr-amt-extension","valueMoney":{"value":0,"system":"urn:iso:std:iso:4217","code":"USD"}},{"url":"https://bluebutton.cms.gov/assets/ig/StructureDefinition-bluebutton-inpatient-clm-pps-cptl-excptn-amt-extension","valueMoney":{"value":0,"system":"urn:iso:std:iso:4217","code":"USD"}},{"url":"https://bluebutton.cms.gov/assets/ig/StructureDefinition-bluebutton-inpatient-clm-pps-cptl-fsp-amt-extension","valueMoney":{"value":0,"system":"urn:iso:std:iso:4217","code":"USD"}},{"url":"https://bluebutton.cms.gov/assets/ig/StructureDefinition-bluebutton-inpatient-clm-pps-cptl-ime-amt-extension","valueMoney":{"value":400,"system":"urn:iso:std:iso:4217","code":"USD"}},{"url":"https://bluebutton.cms.gov/assets/ig/StructureDefinition-bluebutton-inpatient-clm-pps-cptl-outlier-amt-extension","valueMoney":{"value":0,"system":"urn:iso:std:iso:4217","code":"USD"}},{"url":"https://bluebutton.cms.gov/assets/ig/StructureDefinition-bluebutton-inpatient-clm-pps-old-cptl-hld-hrmls-amt-extension","valueMoney":{"value":0,"system":"urn:iso:std:iso:4217","code":"USD"}},{"url":"https://bluebutton.cms.gov/assets/ig/StructureDefinition-bluebutton-inpatient-nch-drg-outlier-aprvd-pmt-amt-extension","valueMoney":{"value":0,"system":"urn:iso:std:iso:4217","code":"USD"}},{"url":"https://bluebutton.cms.gov/assets/ig/StructureDefinition-bluebutton-inpatient-nch-bene-blood-ddctbl-lblty-am-extension","valueMoney":{"value":0,"system":"urn:iso:std:iso:4217","code":"USD"}},{"url":"https://bluebutton.cms.gov/assets/ig/StructureDefinition-bluebutton-inpatient-clm-mdcr-non-pmt-rsn-cd-extension","valueCoding":{"system":"https://bluebutton.cms.gov/assets/ig/CodeSystem-clm-mdcr-non-pmt-rsn-cd","code":"N","display":"All other reasons for non-payment"}},{"url":"https://bluebutton.cms.gov/assets/ig/StructureDefinition-bluebutton-inpatient-prpayamt-extension","valueMoney":{"value":0,"system":"urn:iso:std:iso:4217","code":"USD"}},{"url":"https://bluebutton.cms.gov/assets/ig/StructureDefinition-bluebutton-inpatient-fi-num-extension","valueIdentifier":{"system":"https://bluebutton.cms.gov/assets/ig/CodeSystem-fi-num","value":"002000"}}],"identifier":[{"system":"https://bluebutton.cms.gov/resources/variables/clm_id","value":"7559a151-7255-4e31-b975-2e3fb50713b1"},{"system":"https://bluebutton.cms.gov/resources/identifier/claim-group","value":"99999999999"}],"status":"active","type":{"coding":[{"system":"https://bluebutton.cms.gov/resources/variables/nch_clm_type_cd","code":"71","display":"Local carrier non-durable medical equipment, prosthetics, orthotics, and supplies (DMEPOS) claim"},{"system":"https://bluebutton.cms.gov/resources/codesystem/eob-type","code":"CARRIER","display":"EOB Type"},{"system":"http://hl7.org/fhir/ex-claimtype","code":"professional","display":"Claim Type"},{"system":"https://bluebutton.cms.gov/resources/variables/nch_near_line_rec_ident_cd","code":"O","display":"Part B physician/supplier claim record (processed by local carriers; can include DMEPOS services)"}]},"patient":{"reference":"Patient/411c666d-7d27-437e-9944-d4c43eaac996"},"billablePeriod":{"extension":[{"url":"https://bluebutton.cms.gov/assets/ig/StructureDefinition-bluebutton-inpatient-claim-query-cd-extension","valueCoding":{"system":"https://bluebutton.cms.gov/assets/ig/ValueSet-claim-query-cd","code":"3","display":"Final Bill"}}],"start":"2010-08-31T09:37:49-04:00","end":"2011-08-31T09:37:49-04:00"},"careTeam":[{"sequence":1,"provider":{"identifier":{"system":"http://hl7.org/fhir/sid/us-npi","value":"99999999"}},"role":{"coding":[{"system":"http://hl7.org/fhir/claimcareteamrole","code":"primary","display":"Primary Care Practitioner"}]}}],"diagnosis":[{"extension":[{"url":"https://bluebutton.cms.gov/assets/ig/StructureDefinition-bluebutton-inpatient-clm-poa-ind-sw1-extension","valueCoding":{"system":"https://bluebutton.cms.gov/assets/ig/CodeSystem-clm-poa-ind-sw1","code":"Y","display":"Diagnosis present at time of admission"}}],"sequence":1,"diagnosisReference":{"reference":"Condition/00bdda30-de4c-4405-9514-575c5b7bbf4e"},"type":[{"coding":[{"system":"https://bluebutton.cms.gov/resources/codesystem/diagnosis-type","code":"principal"}]}]}],"insurance":{"coverage":{"reference":"#coverage"}},"item":[{"extension":[{"url":"https://bluebutton.cms.gov/assets/ig/StructureDefinition-bluebutton-inpatient-rev-cntr-ndc-qty-extension","valueQuantity":{"value":0}}],"sequence":1,"locationCodeableConcept":{"coding":[{"system":"https://bluebutton.cms.gov/resources/variables/line_place_of_srvc_cd","code":"21","display":"Inpatient Hospital"}]}},{"extension":[{"url":"https://bluebutton.cms.gov/assets/ig/StructureDefinition-bluebutton-inpatient-rev-cntr-ndc-qty-extension","valueQuantity":{"value":0}}],"sequence":2,"locationCodeableConcept":{"coding":[{"system":"https://bluebutton.cms.gov/resources/variables/line_place_of_srvc_cd","code":"21","display":"Inpatient Hospital"}]}}],"totalCost":{"value":125,"system":"urn:iso:std:iso:4217","code":"USD"},"payment":{"amount":{"value":0,"system":"urn:iso:std:iso:4217","code":"USD"}}}
{"resourceType":"ExplanationOfBenefit","id":"0cf2fb64-1594-4014-8aec-9a3683c384ec","contained":[{"resourceType":"ReferralRequest","id":"1","status":"completed","intent":"order","subject":{"reference":"Patient/411c666d-7d27-437e-9944-d4c43eaac996"},"requester":{"agent":{"identifier":{"system":"http://hl7.org/fhir/sid/us-npi","value":"99999999"}}},"recipient":[{"identifier":{"system":"http://hl7.org/fhir/sid/us-npi","value":"99999999"}}]},{"resourceType":"Coverage","id":"coverage","type":{"text":"no_insurance"}}],"identifier":[{"system":"https://bluebutton.cms.gov/resources/variables/clm_id","value":"300f3c16-f1b5-4247-be2a-93031cdf5829"},{"system":"https://bluebutton.cms.gov/resources/identifier/claim-group","value":"99999999999"}],"status":"active","type":{"coding":[{"system":"https://bluebutton.cms.gov/resources/variables/nch_clm_type_cd","code":"71","display":"Local carrier non-durable medical equipment, prosthetics, orthotics, and supplies (DMEPOS) claim"},{"system":"https://bluebutton.cms.gov/resources/codesystem/eob-type","code":"CARRIER","display":"EOB Type"},{"system":"http://hl7.org/fhir/ex-claimtype","code":"professional","display":"Claim Type"},{"system":"https://bluebutton.cms.gov/resources/variables/nch_near_line_rec_ident_cd","code":"O","display":"Part B physician/supplier claim record (processed by local carriers; can include DMEPOS services)"}]},"patient":{"reference":"Patient/411c666d-7d27-437e-9944-d4c43eaac996"},"billablePeriod":{"start":"2010-09-13T09:37:49-04:00","end":"2011-09-13T09:37:49-04:00"},"created":"2010-09-13T09:37:49-04:00","provider":{"reference":"Organization/49f48ad0-15da-4be6-bc8c-2132c08a805a"},"referral":{"reference":"#1"},"claim":{"reference":"Claim/300f3c16-f1b5-4247-be2a-93031cdf5829"},"careTeam":[{"sequence":1,"provider":{"identifier":{"system":"http://hl7.org/fhir/sid/us-npi","value":"99999999"}},"role":{"coding":[{"system":"http://hl7.org/fhir/claimcareteamrole","code":"primary","display":"Primary Care Practitioner"}]}}],"insurance":{"coverage":{"reference":"#coverage"}},"item":[{"sequence":1,"category":{"coding":[{"system":"https://bluebutton.cms.gov/resources/variables/line_cms_type_srvc_cd","code":"1","display":"Medical care"}]},"servicedPeriod":{"start":"2010-09-13T09:22:49-04:00","end":"2010-09-13T09:37:49-04:00"},"locationCodeableConcept":{"coding":[{"system":"https://bluebutton.cms.gov/resources/variables/line_place_of_srvc_cd","code":"21","display":"Inpatient Hospital"}]},"encounter":[{"reference":"Encounter/31848e17-9337-4eaf-ac4e-b0215051b478"}]}],"totalCost":{"value":125,"system":"urn:iso:std:iso:4217","code":"USD"},"payment":{"amount":{"value":0,"system":"urn:iso:std:iso:4217","code":"USD"}}}
{"resourceType":"ExplanationOfBenefit","id":"7828e408-013e-4db9-9a16-4cbf5d22c34e","meta":{"profile":["https://bluebutton.cms.gov/assets/ig/StructureDefinition-bluebutton-outpatient-claim"]},"contained":[{"resourceType":"Coverage","id":"coverage","type":{"text":"no_insurance"}}],"extension":[{"url":"https://bluebutton.cms.gov/assets/ig/StructureDefinition-bluebutton-outpatient-nch-profnl-cmpnt-chrg-amt-extension","valueMoney":{"value":0,"system":"urn:iso:std:iso:4217","code":"USD"}},{"url":"https://bluebutton.cms.gov/assets/ig/StructureDefinition-bluebutton-outpatient-nch-bene-ptb-ddctbl-amt-extension","valueMoney":{"value":0,"system":"urn:iso:std:iso:4217","code":"USD"}},{"url":"https://bluebutton.cms.gov/assets/ig/StructureDefinition-bluebutton-outpatient-nch-bene-ptb-coinsrnc-amt-extension","valueMoney":{"value":0,"system":"urn:iso:std:iso:4217","code":"USD"}},{"url":"https://bluebutton.cms.gov/assets/ig/StructureDefinition-bluebutton-outpatient-clm-op-prvdr-pmt-amt-extension","valueMoney":{"value":0,"system":"urn:iso:std:iso:4217","code":"USD"}},{"url":"https://bluebutton.cms.gov/assets/ig/StructureDefinition-bluebutton-outpatient-clm-op-bene-pmt-amt-extension","valueMoney":{"value":0,"system":"urn:iso:std:iso:4217","code":"USD"}},{"url":"https://bluebutton.cms.gov/assets/ig/StructureDefinition-bluebutton-outpatient-nch-bene-blood-ddctbl-lblty-am-extension","valueMoney":{"value":0,"system":"urn:iso:std:iso:4217","code":"USD"}},{"url":"https://bluebutton.cms.gov/assets/ig/StructureDefinition-bluebutton-outpatient-clm-mdcr-non-pmt-rsn-cd-extension","valueCoding":{"system":"https://bluebutton.cms.gov/assets/ig/CodeSystem-clm-mdcr-non-pmt-rsn-cd","code":"N","display":"All other reasons for non-payment"}},{"url":"https://bluebutton.cms.gov/assets/ig/StructureDefinition-bluebutton-outpatient-prpayamt-extension","valueMoney":{"value":0,"system":"urn:iso:std:iso:4217","code":"USD"}},{"url":"https://bluebutton.cms.gov/assets/ig/StructureDefinition-bluebutton-outpatient-fi-num-extension","valueIdentifier":{"system":"https://bluebutton.cms.gov/assets/ig/CodeSystem-fi-num","value":"002000"}}],"identifier":[{"system":"https://bluebutton.cms.gov/resources/variables/clm_id","value":"878dfb76-bb40-4ee2-9786-24d1176341ea"},{"system":"https://bluebutton.cms.gov/resources/identifier/claim-group","value":"99999999999"}],"status":"active","type":{"coding":[{"system":"https://bluebutton.cms.gov/resources/variables/nch_clm_type_cd","code":"71","display":"Local carrier non-durable medical equipment, prosthetics, orthotics, and supplies (DMEPOS) claim"},{"system":"https://bluebutton.cms.gov/resources/codesystem/eob-type","code":"CARRIER","display":"EOB Type"},{"system":"http://hl7.org/fhir/ex-claimtype","code":"professional","display":"Claim Type"},{"system":"https://bluebutton.cms.gov/resources/variables/nch_near_line_rec_ident_cd","code":"O","display":"Part B physician/supplier claim record (processed by local carriers; can include DMEPOS services)"}]},"patient":{"reference":"Patient/411c666d-7d27-437e-9944-d4c43eaac996"},"billablePeriod":{"extension":[{"url":"https://bluebutton.cms.gov/assets/ig/StructureDefinition-bluebutton-outpatient-claim-query-cd-extension","valueCoding":{"system":"https://bluebutton.cms.gov/assets/ig/ValueSet-claim-query-cd","code":"3","display":"Final Bill"}}],"start":"2011-06-06T09:37:49-04:00","end":"2012-06-06T09:37:49-04:00"},"careTeam":[{"sequence":1,"provider":{"identifier":{"system":"http://hl7.org/fhir/sid/us-npi","value":"99999999"}},"role":{"coding":[{"system":"http://hl7.org/fhir/claimcareteamrole","code":"primary","display":"Primary Care Practitioner"}]}}],"insurance":{"coverage":{"reference":"#coverage"}},"item":[{"extension":[{"url":"https://bluebutton.cms.gov/assets/ig/StructureDefinition-bluebutton-outpatient-rev-cntr-ndc-qty-extension","valueQuantity":{"value":0}}],"sequence":1,"locationCodeableConcept":{"coding":[{"system":"https://bluebutton.cms.gov/resources/variables/line_place_of_srvc_cd","code":"21","display":"Inpatient Hospital"}]}}],"totalCost":{"value":125,"system":"urn:iso:std:iso:4217","code":"USD"},"payment":{"amount":{"value":0,"system":"urn:iso:std:iso:4217","code":"USD"}}}
{"resourceType":"ExplanationOfBenefit","id":"2e1a4a79-e627-4043-b0ce-14438082d054","contained":[{"resourceType":"ReferralRequest","id":"1","status":"completed","intent":"order","subject":{"reference":"Patient/411c666d-7d27-437e-9944-d4c43eaac996"},"requester":{"agent":{"identifier":{"system":"http://hl7.org/fhir/sid/us-npi","value":"99999999"}}},"recipient":[{"identifier":{"system":"http://hl7.org/fhir/sid/us-npi","value":"99999999"}}]},{"resourceType":"Coverage","id":"coverage","type":{"text":"no_insurance"}}],"identifier":[{"system":"https://bluebutton.cms.gov/resources/variables/clm_id","value":"0bd6496a-b69b-487e-9b28-b0f952344f86"},{"system":"https://bluebutton.cms.gov/resources/identifier/claim-group","value":"99999999999"}],"status":"active","type":{"coding":[{"system":"https://bluebutton.cms.gov/resources/variables/nch_clm_type_cd","code":"71","display":"Local carrier non-durable medical equipment, prosthetics, orthotics, and supplies (DMEPOS) claim"},{"system":"https://bluebutton.cms.gov/resources/codesystem/eob-type","code":"CARRIER","display":"EOB Type"},{"system":"http://hl7.org/fhir/ex-claimtype","code":"professional","display":"Claim Type"},{"system":"https://bluebutton.cms.gov/resources/variables/nch_near_line_rec_ident_cd","code":"O","display":"Part B physician/supplier claim record (processed by local carriers; can include DMEPOS services)"}]},"patient":{"reference":"Patient/411c666d-7d27-437e-9944-d4c43eaac996"},"billablePeriod":{"start":"2011-09-19T09:37:49-04:00","end":"2012-09-19T09:37:49-04:00"},"created":"2011-09-19T09:37:49-04:00","provider":{"reference":"Organization/49f48ad0-15da-4be6-bc8c-2132c08a805a"},"referral":{"reference":"#1"},"claim":{"reference":"Claim/0bd6496a-b69b-487e-9b28-b0f952344f86"},"careTeam":[{"sequence":1,"provider":{"identifier":{"system":"http://hl7.org/fhir/sid/us-npi","value":"99999999"}},"role":{"coding":[{"system":"http://hl7.org/fhir/claimcareteamrole","code":"primary","display":"Primary Care Practitioner"}]}}],"insurance":{"coverage":{"reference":"#coverage"}},"item":[{"sequence":1,"category":{"coding":[{"system":"https://bluebutton.cms.gov/resources/variables/line_cms_type_srvc_cd","code":"1","display":"Medical care"}]},"servicedPeriod":{"start":"2011-09-19T09:22:49-04:00","end":"2011-09-19T09:37:49-04:00"},"locationCodeableConcept":{"coding":[{"system":"https://bluebutton.cms.gov/resources/variables/line_place_of_srvc_cd","code":"21","display":"Inpatient Hospital"}]},"encounter":[{"reference":"Encounter/a5dc9d11-e364-4306-bd9c-b9b620a7fd5b"}]},{"sequence":2,"informationLinkId":[1],"category":{"coding":[{"system":"https://bluebutton.cms.gov/resources/variables/line_cms_type_srvc_cd","code":"1","display":"Medical care"}]},"servicedPeriod":{"start":"2011-09-19T09:22:49-04:00","end":"2011-09-19T09:37:49-04:00"},"locationCodeableConcept":{"coding":[{"system":"https://bluebutton.cms.gov/resources/variables/line_place_of_srvc_cd","code":"21","display":"Inpatient Hospital"}]},"net":{"value":140.52,"system":"urn:iso:std:iso:4217","code":"USD"},"adjudication":[{"category":{"coding":[{"system":"https://bluebutton.cms.gov/resources/codesystem/adjudication","code":"https://bluebutton.cms.gov/resources/variables/line_coinsrnc_amt","display":"Line Beneficiary Coinsurance Amount"}]},"amount":{"value":28.104000000000003,"system":"urn:iso:std:iso:4217","code":"USD"}},{"category":{"coding":[{"system":"https://bluebutton.cms.gov/resources/codesystem/adjudication","code":"https://bluebutton.cms.gov/resources/variables/line_prvdr_pmt_amt","display":"Line Provider Payment Amount"}]},"amount":{"value":112.41600000000001,"system":"urn:iso:std:iso:4217","code":"USD"}},{"category":{"coding":[{"system":"https://bluebutton.cms.gov/resources/codesystem/adjudication","code":"https://bluebutton.cms.gov/resources/variables/line_sbmtd_chrg_amt","display":"Line Submitted Charge Amount"}]},"amount":{"value":140.52,"system":"urn:iso:std:iso:4217","code":"USD"}},{"category":{"coding":[{"system":"https://bluebutton.cms.gov/resources/codesystem/adjudication","code":"https://bluebutton.cms.gov/resources/variables/line_alowd_chrg_amt","display":"Line Allowed Charge Amount"}]},"amount":{"value":140.52,"system":"urn:iso:std:iso:4217","code":"USD"}},{"category":{"coding":[{"system":"https://bluebutton.cms.gov/resources/codesystem/adjudication","code":"https://bluebutton.cms.gov/resources/variables/line_bene_ptb_ddctbl_amt","display":"Line Beneficiary Part B Deductible Amount"}]},"amount":{"value":0,"system":"urn:iso:std:iso:4217","code":"USD"}},{"category":{"coding":[{"system":"https://bluebutton.cms.gov/resources/codesystem/adjudication","code":"https://bluebutton.cms.gov/resources/variables/line_prcsg_ind_cd","display":"Line Processing Indicator Code"}]},"reason":{"coding":[{"system":"https://bluebutton.cms.gov/resources/variables/line_prcsg_ind_cd","code":"A","display":"Allowed"}]}}]}],"totalCost":{"value":265.52,"system":"urn:iso:std:iso:4217","code":"USD"},"payment":{"amount":{"value":112.41600000000001,"system":"urn:iso:std:iso:4217","code":"USD"}}}
{"resourceType":"ExplanationOfBenefit","id":"8388f9d7-e38c-4030-9ade-fe9dfe68e418","meta":{"profile":["https://bluebutton.cms.gov/assets/ig/StructureDefinition-bluebutton-inpatient-claim"]},"contained":[{"resourceType":"Coverage","id":"coverage","type":{"text":"no_insurance"}}],"extension":[{"url":"https://bluebutton.cms.gov/assets/ig/StructureDefinition-bluebutton-inpatient-ime-op-clm-val-amt-extension","valueMoney":{"value":400,"system":"urn:iso:std:iso:4217","code":"USD"}},{"url":"https://bluebutton.cms.gov/assets/ig/StructureDefinition-bluebutton-inpatient-dsh-op-clm-val-amt-extension","valueMoney":{"value":0,"system":"urn:iso:std:iso:4217","code":"USD"}},{"url":"https://bluebutton.cms.gov/assets/ig/StructureDefinition-bluebutton-inpatient-clm-pass-thru-per-diem-amt-extension","valueMoney":{"value":0,"system":"urn:iso:std:iso:4217","code":"USD"}},{"url":"https://bluebutton.cms.gov/assets/ig/StructureDefinition-bluebutton-inpatient-nch-profnl-cmpnt-chrg-amt-extension","valueMoney":{"value":0,"system":"urn:iso:std:iso:4217","code":"USD"}},{"url":"https://bluebutton.cms.gov/assets/ig/StructureDefinition-bluebutton-inpatient-clm-tot-pps-cptl-amt-extension","valueMoney":{"value":0,"system":"urn:iso:std:iso:4217","code":"USD"}},{"url":"https://bluebutton.cms.gov/assets/ig/StructureDefinition-bluebutton-inpatient-nch-bene-ip-ddctbl-amt-extension","valueMoney":{"value":0,"system":"urn:iso:std:iso:4217","code":"USD"}},{"url":"https://bluebutton.cms.gov/assets/ig/StructureDefinition-bluebutton-inpatient-nch-bene-pta-coinsrnc-lblty-amt-extension","valueMoney":{"value":0,"system":"urn:iso:std:iso:4217","code":"USD"}},{"url":"https://bluebutton.cms.gov/assets/ig/StructureDefinition-bluebutton-inpatient-nch-ip-ncvrd-chrg-amt-extension","valueMoney":{"value":0,"system":"urn:iso:std:iso:4217","code":"USD"}},{"url":"https://bluebutton.cms.gov/assets/ig/StructureDefinition-bluebutton-inpatient-nch-ip-tot-ddctn-amt-extension","valueMoney":{"value":0,"system":"urn:iso:std:iso:4217","code":"USD"}},{"url":"https://bluebutton.cms.gov/assets/ig/StructureDefinition-bluebutton-inpatient-clm-pps-cptl-dsprprtnt-shr-amt-extension","valueMoney":{"value":0,"system":"urn:iso:std:iso:4217","code":"USD"}},{"url":"https://bluebutton.cms.gov/assets/ig/StructureDefinition-bluebutton-inpatient-clm-pps-cptl-excptn-amt-extension","valueMoney":{"value":0,"system":"urn:iso:std:iso:4217","code":"USD"}},{"url":"https://bluebutton.cms.gov/assets/ig/StructureDefinition-bluebutton-inpatient-clm-pps-cptl-fsp-amt-extension","valueMoney":{"value":0,"system":"urn:iso:std:iso:4217","code":"USD"}},{"url":"https://bluebutton.cms.gov/assets/ig/StructureDefinition-bluebutton-inpatient-clm-pps-cptl-ime-amt-extension","valueMoney":{"value":400,"system":"urn:iso:std:iso:4217","code":"USD"}},{"url":"https://bluebutton.cms.gov/assets/ig/StructureDefinition-bluebutton-inpatient-clm-pps-cptl-outlier-amt-extension","valueMoney":{"value":0,"system":"urn:iso:std:iso:4217","code":"USD"}},{"url":"https://bluebutton.cms.gov/assets/ig/StructureDefinition-bluebutton-inpatient-clm-pps-old-cptl-hld-hrmls-amt-extension","valueMoney":{"value":0,"system":"urn:iso:std:iso:4217","code":"USD"}},{"url":"https://bluebutton.cms.gov/assets/ig/StructureDefinition-bluebutton-inpatient-nch-drg-outlier-aprvd-pmt-amt-extension","valueMoney":{"value":0,"system":"urn:iso:std:iso:4217","code":"USD"}},{"url":"https://bluebutton.cms.gov/assets/ig/StructureDefinition-bluebutton-inpatient-nch-bene-blood-ddctbl-lblty-am-extension","valueMoney":{"value":0,"system":"urn:iso:std:iso:4217","code":"USD"}},{"url":"https://bluebutton.cms.gov/assets/ig/StructureDefinition-bluebutton-inpatient-clm-mdcr-non-pmt-rsn-cd-extension","valueCoding":{"system":"https://bluebutton.cms.gov/assets/ig/CodeSystem-clm-mdcr-non-pmt-rsn-cd","code":"N","display":"All other reasons for non-payment"}},{"url":"https://bluebutton.cms.gov/assets/ig/StructureDefinition-bluebutton-inpatient-prpayamt-extension","valueMoney":{"value":0,"system":"urn:iso:std:iso:4217","code":"USD"}},{"url":"https://bluebutton.cms.gov/assets/ig/StructureDefinition-bluebutton-inpatient-fi-num-extension","valueIdentifier":{"system":"https://bluebutton.cms.gov/assets/ig/CodeSystem-fi-num","value":"002000"}}],"identifier":[{"system":"https://bluebutton.cms.gov/resources/variables/clm_id","value":"e3dc8ea3-0a96-4879-aa36-bcc460628b71"},{"system":"https://bluebutton.cms.gov/resources/identifier/claim-group","value":"99999999999"}],"status":"active","type":{"coding":[{"system":"https://bluebutton.cms.gov/resources/variables/nch_clm_type_cd","code":"71","display":"Local carrier non-durable medical equipment, prosthetics, orthotics, and supplies (DMEPOS) claim"},{"system":"https://bluebutton.cms.gov/resources/codesystem/eob-type","code":"CARRIER","display":"EOB Type"},{"system":"http://hl7.org/fhir/ex-claimtype","code":"professional","display":"Claim Type"},{"system":"https://bluebutton.cms.gov/resources/variables/nch_near_line_rec_ident_cd","code":"O","display":"Part B physician/supplier claim record (processed by local carriers; can include DMEPOS services)"}]},"patient":{"reference":"Patient/411c666d-7d27-437e-9944-d4c43eaac996"},"billablePeriod":{"extension":[{"url":"https://bluebutton.cms.gov/assets/ig/StructureDefinition-bluebutton-inpatient-claim-query-cd-extension","valueCoding":{"system":"https://bluebutton.cms.gov/assets/ig/ValueSet-claim-query-cd","code":"3","display":"Final Bill"}}],"start":"2012-08-04T09:52:49-04:00","end":"2013-08-04T09:52:49-04:00"},"careTeam":[{"sequence":1,"provider":{"identifier":{"system":"http://hl7.org/fhir/sid/us-npi","value":"99999999"}},"role":{"coding":[{"system":"http://hl7.org/fhir/claimcareteamrole","code":"primary","display":"Primary Care Practitioner"}]}}],"diagnosis":[{"extension":[{"url":"https://bluebutton.cms.gov/assets/ig/StructureDefinition-bluebutton-inpatient-clm-poa-ind-sw1-extension","valueCoding":{"system":"https://bluebutton.cms.gov/assets/ig/CodeSystem-clm-poa-ind-sw1","code":"Y","display":"Diagnosis present at time of admission"}}],"sequence":1,"diagnosisReference":{"reference":"Condition/14fffad9-d9cd-4985-aa6d-ba57cdbc4e27"},"type":[{"coding":[{"system":"https://bluebutton.cms.gov/resources/codesystem/diagnosis-type","code":"principal"}]}]}],"insurance":{"coverage":{"reference":"#coverage"}},"item":[{"extension":[{"url":"https://bluebutton.cms.gov/assets/ig/StructureDefinition-bluebutton-inpatient-rev-cntr-ndc-qty-extension","valueQuantity":{"value":0}}],"sequence":1,"locationCodeableConcept":{"coding":[{"system":"https://bluebutton.cms.gov/resources/variables/line_place_of_srvc_cd","code":"21","display":"Inpatient Hospital"}]}},{"extension":[{"url":"https://bluebutton.cms.gov/assets/ig/StructureDefinition-bluebutton-inpatient-rev-cntr-ndc-qty-extension","valueQuantity":{"value":0}}],"sequence":2,"locationCodeableConcept":{"coding":[{"system":"https://bluebutton.cms.gov/resources/variables/line_place_of_srvc_cd","code":"21","display":"Inpatient Hospital"}]}},{"extension":[{"url":"https://bluebutton.cms.gov/assets/ig/StructureDefinition-bluebutton-inpatient-rev-cntr-ndc-qty-extension","valueQuantity":{"value":0}}],"sequence":3,"service":{"coding":[{"system":"http://snomed.info/sct","version":"v1","code":"117015009"}]},"locationCodeableConcept":{"coding":[{"system":"https://bluebutton.cms.gov/resources/variables/line_place_of_srvc_cd","code":"21","display":"Inpatient Hospital"}]},"adjudication":[{"category":{"coding":[{"system":"https://bluebutton.cms.gov/resources/codesystem/adjudication","code":"https://bluebutton.cms.gov/resources/variables/line_coinsrnc_amt","display":"Line Beneficiary Coinsurance Amount"}]},"amount":{"value":651.448,"system":"urn:iso:std:iso:4217","code":"USD"}},{"category":{"coding":[{"system":"https://bluebutton.cms.gov/resources/codesystem/adjudication","code":"https://bluebutton.cms.gov/resources/variables/line_prvdr_pmt_amt","display":"Line Provider Payment Amount"}]},"amount":{"value":2605.792,"system":"urn:iso:std:iso:4217","code":"USD"}},{"category":{"coding":[{"system":"https://bluebutton.cms.gov/resources/codesystem/adjudication","code":"https://bluebutton.cms.gov/resources/variables/line_sbmtd_chrg_amt","display":"Line Submitted Charge Amount"}]},"amount":{"value":3257.24,"system":"urn:iso:std:iso:4217","code":"USD"}},{"category":{"coding":[{"system":"https://bluebutton.cms.gov/resources/codesystem/adjudication","code":"https://bluebutton.cms.gov/resources/variables/line_alowd_chrg_amt","display":"Line Allowed Charge Amount"}]},"amount":{"value":3257.24,"system":"urn:iso:std:iso:4217","code":"USD"}},{"category":{"coding":[{"system":"https://bluebutton.cms.gov/resources/codesystem/adjudication","code":"https://bluebutton.cms.gov/resources/variables/line_bene_ptb_ddctbl_amt","display":"Line Beneficiary Part B Deductible Amount"}]},"amount":{"value":0,"system":"urn:iso:std:iso:4217","code":"USD"}},{"category":{"coding":[{"system":"https://bluebutton.cms.gov/resources/codesystem/adjudication","code":"https://bluebutton.cms.gov/resources/variables/line_prcsg_ind_cd","display":"Line Processing Indicator Code"}]}}]}],"totalCost":{"value":3382.24,"system":"urn:iso:std:iso:4217","code":"USD"},"payment":{"amount":{"value":2605.792,"system":"urn:iso:std:iso:4217","code":"USD"}}}
{"resourceType":"ExplanationOfBenefit","id":"71c1e05a-7c5a-467a-a0b0-781631dfaa50","contained":[{"resourceType":"ReferralRequest","id":"1","status":"completed","intent":"order","subject":{"reference":"Patient/411c666d-7d27-437e-9944-d4c43eaac996"},"requester":{"agent":{"identifier":{"system":"http://hl7.org/fhir/sid/us-npi","value":"99999999"}}},"recipient":[{"identifier":{"system":"http://hl7.org/fhir/sid/us-npi","value":"99999999"}}]},{"resourceType":"Coverage","id":"coverage","type":{"text":"no_insurance"}}],"identifier":[{"system":"https://bluebutton.cms.gov/resources/variables/clm_id","value":"159bdedd-20a9-4839-85de-aff51b4fcbb2"},{"system":"https://bluebutton.cms.gov/resources/identifier/claim-group","value":"99999999999"}],"status":"active","type":{"coding":[{"system":"https://bluebutton.cms.gov/resources/variables/nch_clm_type_cd","code":"71","display":"Local carrier non-durable medical equipment, prosthetics, orthotics, and supplies (DMEPOS) claim"},{"system":"https://bluebutton.cms.gov/resources/codesystem/eob-type","code":"CARRIER","display":"EOB Type"},{"system":"http://hl7.org/fhir/ex-claimtype","code":"professional","display":"Claim Type"},{"system":"https://bluebutton.cms.gov/resources/variables/nch_near_line_rec_ident_cd","code":"O","display":"Part B physician/supplier claim record (processed by local carriers; can include DMEPOS services)"}]},"patient":{"reference":"Patient/411c666d-7d27-437e-9944-d4c43eaac996"},"billablePeriod":{"start":"2012-09-24T09:37:49-04:00","end":"2013-09-24T09:37:49-04:00"},"created":"2012-09-24T09:37:49-04:00","provider":{"reference":"Organization/49f48ad0-15da-4be6-bc8c-2132c08a805a"},"referral":{"reference":"#1"},"claim":{"reference":"Claim/159bdedd-20a9-4839-85de-aff51b4fcbb2"},"careTeam":[{"sequence":1,"provider":{"identifier":{"system":"http://hl7.org/fhir/sid/us-npi","value":"99999999"}},"role":{"coding":[{"system":"http://hl7.org/fhir/claimcareteamrole","code":"primary","display":"Primary Care Practitioner"}]}}],"insurance":{"coverage":{"reference":"#coverage"}},"item":[{"sequence":1,"category":{"coding":[{"system":"https://bluebutton.cms.gov/resources/variables/line_cms_type_srvc_cd","code":"1","display":"Medical care"}]},"servicedPeriod":{"start":"2012-09-24T09:22:49-04:00","end":"2012-09-24T09:37:49-04:00"},"locationCodeableConcept":{"coding":[{"system":"https://bluebutton.cms.gov/resources/variables/line_place_of_srvc_cd","code":"21","display":"Inpatient Hospital"}]},"encounter":[{"reference":"Encounter/e504c276-3d15-4924-a755-7240fb1abcdc"}]},{"sequence":2,"informationLinkId":[1],"category":{"coding":[{"system":"https://bluebutton.cms.gov/resources/variables/line_cms_type_srvc_cd","code":"1","display":"Medical care"}]},"servicedPeriod":{"start":"2012-09-24T09:22:49-04:00","end":"2012-09-24T09:37:49-04:00"},"locationCodeableConcept":{"coding":[{"system":"https://bluebutton.cms.gov/resources/variables/line_place_of_srvc_cd","code":"21","display":"Inpatient Hospital"}]},"net":{"value":140.52,"system":"urn:iso:std:iso:4217","code":"USD"},"adjudication":[{"category":{"coding":[{"system":"https://bluebutton.cms.gov/resources/codesystem/adjudication","code":"https://bluebutton.cms.gov/resources/variables/line_coinsrnc_amt","display":"Line Beneficiary Coinsurance Amount"}]},"amount":{"value":28.104000000000003,"system":"urn:iso:std:iso:4217","code":"USD"}},{"category":{"coding":[{"system":"https://bluebutton.cms.gov/resources/codesystem/adjudication","code":"https://bluebutton.cms.gov/resources/variables/line_prvdr_pmt_amt","display":"Line Provider Payment Amount"}]},"amount":{"value":112.41600000000001,"system":"urn:iso:std:iso:4217","code":"USD"}},{"category":{"coding":[{"system":"https://bluebutton.cms.gov/resources/codesystem/adjudication","code":"https://bluebutton.cms.gov/resources/variables/line_sbmtd_chrg_amt","display":"Line Submitted Charge Amount"}]},"amount":{"value":140.52,"system":"urn:iso:std:iso:4217","code":"USD"}},{"category":{"coding":[{"system":"https://bluebutton.cms.gov/resources/codesystem/adjudication","code":"https://bluebutton.cms.gov/resources/variables/line_alowd_chrg_amt","display":"Line Allowed Charge Amount"}]},"amount":{"value":140.52,"system":"urn:iso:std:iso:4217","code":"USD"}},{"category":{"coding":[{"system":"https://bluebutton.cms.gov/resources/codesystem/adjudication","code":"https://bluebutton.cms.gov/resources/variables/line_bene_ptb_ddctbl_amt","display":"Line Beneficiary Part B Deductible Amount"}]},"amount":{"value":0,"system":"urn:iso:std:iso:4217","code":"USD"}},{"category":{"coding":[{"system":"https://bluebutton.cms.gov/resources/codesystem/adjudication","code":"https://bluebutton.cms.gov/resources/variables/line_prcsg_ind_cd","display":"Line Processing Indicator Code"}]},"reason":{"coding":[{"system":"https://bluebutton.cms.gov/resources/variables/line_prcsg_ind_cd","code":"A","display":"Allowed"}]}}]}],"totalCost":{"value":265.52,"system":"urn:iso:std:iso:4217","code":"USD"},"payment":{"amount":{"value":112.41600000000001,"system":"urn:iso:std:iso:4217","code":"USD"}}}